{
    "resourceType": "Bundle",
    "type": "transaction",
    "entry": [
        {
            "fullUrl": "urn:uuid:b0223c9b-0019-42b0-99b8-7d689d7f8414",
            "resource": {
              "resourceType": "Patient",
              "id": "b0223c9b-0019-42b0-99b8-7d689d7f8414",
            "name": [
                {
                  "use": "official",
                  "family": "demo",
                  "given": [
                    "demo"
                  ]
                }
              ]
            },
            "request": {
              "method": "POST",
              "url": "Patient"
            }
        },
        {
            "fullUrl": "urn:uuid:00000173-bfbc-8987-0000-000000009e84",
            "resource": {
              "resourceType": "Practitioner",
              "id": "00000173-bfbc-8987-0000-000000009e84",
              "active": true,
            "name": [
                {
                    "family": "doctor",
                    "given": [
                    "doctor"
                    ],
                    "prefix": [
                    "Dr."
                    ]
                }
            ]
            },
            "request": {
            "method": "POST",
            "url": "Practitioner"
            }
        },    
        {
            "fullUrl": "urn:uuid:fadc1c32-6b3a-4ba5-b0e3-d97474dc7f54",
            "resource": {
              "resourceType": "Encounter",
              "id": "fadc1c32-6b3a-4ba5-b0e3-d97474dc7f54",
              "status": "finished",
              "class": {
                "system": "http://terminology.hl7.org/CodeSystem/v3-ActCode",
                "code": "AMB"
              },
              "type": [
                {
                  "coding": [
                    {
                      "system": "http://snomed.info/sct",
                      "code": "410620009",
                      "display": "Well child visit (procedure)"
                    }
                  ],
                  "text": "Well child visit (procedure)"
                }
              ],
              "subject": {
                "reference": "urn:uuid:b0223c9b-0019-42b0-99b8-7d689d7f8414",
                "display": "demo demo"
              },
              "participant": [
                {
                  "individual": {
                    "reference": "urn:uuid:00000173-bfbc-8987-0000-000000009e84",
                    "display": "Dr. doctor doctor"
                  }
                }
              ],
              "period": {
                "start": "2010-10-11T14:26:21+00:00",
                "end": "2010-10-11T14:41:21+00:00"
              }
            },
              "request": {
                "method": "POST",
                "url": "Encounter"
              }
            }
    ]
}